{
    "resourceType": "ExplanationOfBenefit",
    "id": "49327",
    "meta": {
        "versionId": "1",
        "lastUpdated": "2019-10-18T20:20:56.872+00:00",
        "source": "#ML8v9Ku1pGuXAhZr"
    },
    "contained": [
        {
            "resourceType": "ServiceRequest",
            "id": "referral",
            "status": "completed",
            "intent": "order",
            "subject": {
                "reference": "Patient/49006"
            },
            "requester": {
                "reference": "Practitioner/49046"
            },
            "performer": [
                {
                    "reference": "Practitioner/49046"
                }
            ]
        },
        {
            "resourceType": "Coverage",
            "id": "coverage",
            "status": "active",
            "type": {
                "text": "UnitedHealthcare"
            },
            "beneficiary": {
                "reference": "Patient/49006"
            },
            "payor": [
                {
                    "display": "UnitedHealthcare"
                }
            ]
        }
    ],
    "identifier": [
        {
            "system": "https://bluebutton.cms.gov/resources/variables/clm_id",
            "value": "ddc27e60-d98a-4e6e-bce8-f814adeca208"
        },
        {
            "system": "https://bluebutton.cms.gov/resources/identifier/claim-group",
            "value": "99999999999"
        }
    ],
    "status": "active",
    "type": {
        "coding": [
            {
                "system": "http://terminology.hl7.org/CodeSystem/claim-type",
                "code": "institutional"
            }
        ]
    },
    "use": "claim",
    "patient": {
        "reference": "Patient/49006"
    },
    "billablePeriod": {
        "start": "2016-04-18T20:42:01-04:00",
        "end": "2017-04-18T20:42:01-04:00"
    },
    "created": "2016-04-18T20:42:01-04:00",
    "insurer": {
        "display": "UnitedHealthcare"
    },
    "provider": {
        "reference": "Practitioner/49046"
    },
    "referral": {
        "reference": "#referral"
    },
    "claim": {
        "reference": "Claim/49326"
    },
    "outcome": "complete",
    "careTeam": [
        {
            "sequence": 1,
            "provider": {
                "reference": "Practitioner/49046"
            },
            "role": {
                "coding": [
                    {
                        "system": "http://terminology.hl7.org/CodeSystem/claimcareteamrole",
                        "code": "primary",
                        "display": "Primary Care Practitioner"
                    }
                ]
            }
        }
    ],
    "insurance": [
        {
            "focal": true,
            "coverage": {
                "reference": "#coverage",
                "display": "UnitedHealthcare"
            }
        }
    ],
    "item": [
        {
            "sequence": 1,
            "category": {
                "coding": [
                    {
                        "system": "https://bluebutton.cms.gov/resources/variables/line_cms_type_srvc_cd",
                        "code": "1",
                        "display": "Medical care"
                    }
                ]
            },
            "productOrService": {
                "coding": [
                    {
                        "system": "http://snomed.info/sct",
                        "code": "162673000",
                        "display": "General examination of patient (procedure)"
                    }
                ],
                "text": "General examination of patient (procedure)"
            },
            "servicedPeriod": {
                "start": "2016-04-18T20:27:01-04:00",
                "end": "2016-04-18T20:42:01-04:00"
            },
            "locationCodeableConcept": {
                "coding": [
                    {
                        "system": "http://terminology.hl7.org/CodeSystem/ex-serviceplace",
                        "code": "19",
                        "display": "Off Campus-Outpatient Hospital"
                    }
                ]
            },
            "encounter": [
                {
                    "reference": "Encounter/49314"
                }
            ]
        },
        {
            "sequence": 2,
            "informationSequence": [
                1
            ],
            "category": {
                "coding": [
                    {
                        "system": "https://bluebutton.cms.gov/resources/variables/line_cms_type_srvc_cd",
                        "code": "1",
                        "display": "Medical care"
                    }
                ]
            },
            "productOrService": {
                "coding": [
                    {
                        "system": "http://hl7.org/fhir/sid/cvx",
                        "code": "140",
                        "display": "Influenza, seasonal, injectable, preservative free"
                    }
                ],
                "text": "Influenza, seasonal, injectable, preservative free"
            },
            "servicedPeriod": {
                "start": "2016-04-18T20:27:01-04:00",
                "end": "2016-04-18T20:42:01-04:00"
            },
            "locationCodeableConcept": {
                "coding": [
                    {
                        "system": "http://terminology.hl7.org/CodeSystem/ex-serviceplace",
                        "code": "19",
                        "display": "Off Campus-Outpatient Hospital"
                    }
                ]
            },
            "net": {
                "value": 140.52,
                "currency": "USD"
            },
            "adjudication": [
                {
                    "category": {
                        "coding": [
                            {
                                "system": "https://bluebutton.cms.gov/resources/codesystem/adjudication",
                                "code": "https://bluebutton.cms.gov/resources/variables/line_coinsrnc_amt",
                                "display": "Line Beneficiary Coinsurance Amount"
                            }
                        ]
                    },
                    "amount": {
                        "value": 28.104000000000003,
                        "currency": "USD"
                    }
                },
                {
                    "category": {
                        "coding": [
                            {
                                "system": "https://bluebutton.cms.gov/resources/codesystem/adjudication",
                                "code": "https://bluebutton.cms.gov/resources/variables/line_prvdr_pmt_amt",
                                "display": "Line Provider Payment Amount"
                            }
                        ]
                    },
                    "amount": {
                        "value": 112.41600000000001,
                        "currency": "USD"
                    }
                },
                {
                    "category": {
                        "coding": [
                            {
                                "system": "https://bluebutton.cms.gov/resources/codesystem/adjudication",
                                "code": "https://bluebutton.cms.gov/resources/variables/line_sbmtd_chrg_amt",
                                "display": "Line Submitted Charge Amount"
                            }
                        ]
                    },
                    "amount": {
                        "value": 140.52,
                        "currency": "USD"
                    }
                },
                {
                    "category": {
                        "coding": [
                            {
                                "system": "https://bluebutton.cms.gov/resources/codesystem/adjudication",
                                "code": "https://bluebutton.cms.gov/resources/variables/line_alowd_chrg_amt",
                                "display": "Line Allowed Charge Amount"
                            }
                        ]
                    },
                    "amount": {
                        "value": 140.52,
                        "currency": "USD"
                    }
                },
                {
                    "category": {
                        "coding": [
                            {
                                "system": "https://bluebutton.cms.gov/resources/codesystem/adjudication",
                                "code": "https://bluebutton.cms.gov/resources/variables/line_bene_ptb_ddctbl_amt",
                                "display": "Line Beneficiary Part B Deductible Amount"
                            }
                        ]
                    },
                    "amount": {
                        "value": 0,
                        "currency": "USD"
                    }
                },
                {
                    "category": {
                        "coding": [
                            {
                                "system": "https://bluebutton.cms.gov/resources/codesystem/adjudication",
                                "code": "https://bluebutton.cms.gov/resources/variables/line_prcsg_ind_cd",
                                "display": "Line Processing Indicator Code"
                            }
                        ]
                    }
                }
            ]
        }
    ],
    "total": [
        {
            "category": {
                "coding": [
                    {
                        "system": "http://terminology.hl7.org/CodeSystem/adjudication",
                        "code": "submitted",
                        "display": "Submitted Amount"
                    }
                ],
                "text": "Submitted Amount"
            },
            "amount": {
                "value": 129.16,
                "currency": "USD"
            }
        }
    ],
    "payment": {
        "amount": {
            "value": 112.41600000000001,
            "currency": "USD"
        }
    }
}